id,year,month,day,hour,minute,second,acc_x,acc_y,acc_z
0,2021,10,27,14,26,52,NaN,,
1,2021,10,27,14,26,52,NaN,,
2,2021,10,27,14,26,52,NaN,,
3,2021,10,27,14,26,52,NaN,NaN,NaN
4,2021,10,27,14,26,52,0.14,-0.13,0.91
5,2021,10,27,14,26,52,-0.29,-0.0,-0.53
6,2021,10,27,14,26,52,0.15,-0.14,0.93
7,2021,10,27,14,26,52,0.17,-0.14,0.99
8,2021,10,27,14,26,52,0.17,-0.14,1.0
9,2021,10,27,14,26,52,0.17,-0.14,1.0
10,2021,10,27,14,26,52,0.17,-0.14,1.0
11,2021,10,27,14,26,52,0.17,-0.14,1.0
12,2021,10,27,14,26,52,0.17,-0.14,1.0
13,2021,10,27,14,26,52,0.17,-0.14,1.0
14,2021,10,27,14,26,52,0.17,-0.14,1.0
15,2021,10,27,14,26,52,0.17,-0.14,1.0
16,2021,10,27,14,26,52,0.17,-0.14,1.0
17,2021,10,27,14,26,52,0.17,-0.14,0.99
18,2021,10,27,14,26,52,0.17,-0.14,0.99
19,2021,10,27,14,26,52,0.17,-0.14,0.99
20,2021,10,27,14,26,52,0.17,-0.14,0.99
21,2021,10,27,14,26,52,0.17,-0.14,1.0
22,2021,10,27,14,26,52,0.17,-0.14,0.99
23,2021,10,27,14,26,52,0.17,-0.14,0.99
24,2021,10,27,14,26,52,0.17,-0.14,1.0
25,2021,10,27,14,26,52,0.17,-0.14,1.0
26,2021,10,27,14,26,52,0.17,-0.14,1.0
27,2021,10,27,14,26,52,0.17,-0.14,1.0
28,2021,10,27,14,26,52,0.17,-0.14,0.99
29,2021,10,27,14,26,52,0.17,-0.14,1.0
30,2021,10,27,14,26,52,0.17,-0.14,1.0
31,2021,10,27,14,26,52,0.17,-0.14,1.0
32,2021,10,27,14,26,52,0.17,-0.14,0.99
33,2021,10,27,14,26,52,0.17,-0.14,1.0
34,2021,10,27,14,26,52,0.17,-0.14,1.0
35,2021,10,27,14,26,52,0.17,-0.14,1.0
36,2021,10,27,14,26,52,0.17,-0.14,1.0
37,2021,10,27,14,26,52,0.17,-0.14,1.0
38,2021,10,27,14,26,52,0.17,-0.14,1.0
39,2021,10,27,14,26,52,0.17,-0.14,0.99
40,2021,10,27,14,26,52,0.17,-0.14,0.99
41,2021,10,27,14,26,52,0.17,-0.14,1.0
42,2021,10,27,14,26,52,0.17,-0.14,1.0
43,2021,10,27,14,26,52,0.17,-0.14,1.0
44,2021,10,27,14,26,52,0.17,-0.14,1.0
45,2021,10,27,14,26,52,0.17,-0.14,1.0
46,2021,10,27,14,26,52,0.17,-0.14,1.0
47,2021,10,27,14,26,52,0.17,-0.14,1.0
48,2021,10,27,14,26,52,0.17,-0.14,1.0
49,2021,10,27,14,26,52,0.17,-0.14,1.0
50,2021,10,27,14,26,52,0.17,-0.14,1.0
51,2021,10,27,14,26,52,0.17,-0.14,1.0
52,2021,10,27,14,26,52,0.17,-0.14,1.0
53,2021,10,27,14,26,52,0.17,-0.14,1.0
54,2021,10,27,14,26,52,0.17,-0.14,1.0
55,2021,10,27,14,26,52,0.17,-0.14,1.0
56,2021,10,27,14,26,52,0.17,-0.14,1.0
57,2021,10,27,14,26,52,0.17,-0.14,1.0
58,2021,10,27,14,26,52,0.17,-0.14,1.0
59,2021,10,27,14,26,53,0.17,-0.14,1.0
60,2021,10,27,14,26,53,0.17,-0.14,1.0
61,2021,10,27,14,26,53,0.17,-0.14,1.0
62,2021,10,27,14,26,53,0.17,-0.14,1.0
63,2021,10,27,14,26,53,0.17,-0.14,1.0
64,2021,10,27,14,26,53,0.17,-0.14,1.0
65,2021,10,27,14,26,53,0.17,-0.14,1.0
66,2021,10,27,14,26,53,0.17,-0.14,1.0
67,2021,10,27,14,26,53,0.17,-0.14,1.0
68,2021,10,27,14,26,53,0.17,-0.14,1.0
69,2021,10,27,14,26,53,0.17,-0.14,1.0
70,2021,10,27,14,26,53,0.17,-0.14,1.0
71,2021,10,27,14,26,53,0.17,-0.14,1.0
72,2021,10,27,14,26,53,0.17,-0.14,1.0
73,2021,10,27,14,26,53,0.17,-0.14,1.0
74,2021,10,27,14,26,53,0.17,-0.14,1.0
75,2021,10,27,14,26,53,0.17,-0.14,1.0
76,2021,10,27,14,26,53,0.17,-0.14,1.0
77,2021,10,27,14,26,53,0.17,-0.14,1.0
78,2021,10,27,14,26,53,0.17,-0.14,1.0
79,2021,10,27,14,26,53,0.17,-0.14,1.0
80,2021,10,27,14,26,53,0.17,-0.14,1.0
81,2021,10,27,14,26,53,0.17,-0.14,1.0
82,2021,10,27,14,26,53,0.17,-0.14,1.0
83,2021,10,27,14,26,53,0.17,-0.14,1.0
84,2021,10,27,14,26,53,0.17,-0.14,1.0
85,2021,10,27,14,26,53,0.17,-0.14,1.0
86,2021,10,27,14,26,53,0.17,-0.14,1.0
87,2021,10,27,14,26,53,0.17,-0.14,1.0
88,2021,10,27,14,26,53,0.17,-0.14,1.0
89,2021,10,27,14,26,53,0.17,-0.14,1.0
90,2021,10,27,14,26,53,0.17,-0.14,1.0
91,2021,10,27,14,26,53,0.17,-0.14,1.0
92,2021,10,27,14,26,53,0.17,-0.14,1.0
93,2021,10,27,14,26,53,0.17,-0.14,1.0
94,2021,10,27,14,26,53,0.17,-0.14,1.0
95,2021,10,27,14,26,53,0.17,-0.14,1.0
96,2021,10,27,14,26,53,0.17,-0.14,1.0
97,2021,10,27,14,26,53,0.17,-0.14,1.0
98,2021,10,27,14,26,53,0.17,-0.14,1.0
99,2021,10,27,14,26,53,0.17,-0.14,1.0
100,2021,10,27,14,26,53,0.17,-0.14,1.0
101,2021,10,27,14,26,53,0.17,-0.14,1.0
102,2021,10,27,14,26,53,0.17,-0.14,1.0
103,2021,10,27,14,26,53,0.17,-0.14,1.0
104,2021,10,27,14,26,53,0.17,-0.14,1.0
105,2021,10,27,14,26,53,0.17,-0.14,1.0
106,2021,10,27,14,26,53,0.17,-0.14,1.0
107,2021,10,27,14,26,53,0.17,-0.14,1.0
108,2021,10,27,14,26,53,0.17,-0.14,1.0
109,2021,10,27,14,26,53,0.17,-0.14,1.0
110,2021,10,27,14,26,53,0.17,-0.14,1.0
111,2021,10,27,14,26,53,0.17,-0.14,1.0
112,2021,10,27,14,26,53,0.17,-0.14,1.0
113,2021,10,27,14,26,53,0.17,-0.14,1.0
114,2021,10,27,14,26,53,0.17,-0.14,1.0
115,2021,10,27,14,26,53,0.17,-0.14,1.0
116,2021,10,27,14,26,53,0.17,-0.14,1.0
117,2021,10,27,14,26,53,0.17,-0.14,1.0
118,2021,10,27,14,26,53,0.17,-0.14,1.0
119,2021,10,27,14,26,53,0.17,-0.14,1.0
120,2021,10,27,14,26,53,0.17,-0.14,1.0
121,2021,10,27,14,26,53,0.17,-0.14,1.0
122,2021,10,27,14,26,53,0.17,-0.14,1.0
123,2021,10,27,14,26,53,0.17,-0.14,1.0
124,2021,10,27,14,26,53,0.17,-0.14,1.0
125,2021,10,27,14,26,53,0.17,-0.14,1.0
126,2021,10,27,14,26,53,0.17,-0.14,1.0
127,2021,10,27,14,26,53,0.17,-0.14,1.0
128,2021,10,27,14,26,53,0.17,-0.14,1.0
129,2021,10,27,14,26,53,0.17,-0.14,1.0
130,2021,10,27,14,26,53,0.17,-0.14,1.0
131,2021,10,27,14,26,53,0.17,-0.14,1.0
132,2021,10,27,14,26,53,0.17,-0.14,1.0
133,2021,10,27,14,26,53,0.17,-0.14,1.0
134,2021,10,27,14,26,53,0.17,-0.14,0.99
135,2021,10,27,14,26,53,0.16,-0.14,0.98
136,2021,10,27,14,26,53,0.16,-0.14,0.98
137,2021,10,27,14,26,53,0.16,-0.13,0.98
138,2021,10,27,14,26,53,0.16,-0.13,0.97
139,2021,10,27,14,26,53,0.15,-0.11,0.95
140,2021,10,27,14,26,53,0.14,-0.09,0.98
141,2021,10,27,14,26,53,0.13,-0.09,1.07
142,2021,10,27,14,26,53,0.16,-0.13,1.11
143,2021,10,27,14,26,53,0.16,-0.19,1.08
144,2021,10,27,14,26,53,0.15,-0.22,1.02
145,2021,10,27,14,26,53,0.16,-0.19,0.99
146,2021,10,27,14,26,53,0.15,-0.15,0.98
147,2021,10,27,14,26,53,0.16,-0.13,0.98
148,2021,10,27,14,26,53,0.15,-0.12,0.99
149,2021,10,27,14,26,53,0.14,-0.13,1.0
150,2021,10,27,14,26,53,0.14,-0.14,1.01
151,2021,10,27,14,26,53,0.14,-0.14,1.01
152,2021,10,27,14,26,53,0.14,-0.14,1.01
153,2021,10,27,14,26,53,0.15,-0.13,1.0
154,2021,10,27,14,26,53,0.15,-0.13,1.0
155,2021,10,27,14,26,53,0.14,-0.14,1.0
156,2021,10,27,14,26,53,0.14,-0.14,1.0
157,2021,10,27,14,26,53,0.14,-0.14,1.01
158,2021,10,27,14,26,53,0.14,-0.14,1.01
159,2021,10,27,14,26,53,0.15,-0.14,1.01
160,2021,10,27,14,26,53,0.14,-0.14,1.0
161,2021,10,27,14,26,53,0.14,-0.14,1.0
162,2021,10,27,14,26,53,0.14,-0.14,1.01
163,2021,10,27,14,26,53,0.14,-0.14,1.0
164,2021,10,27,14,26,53,0.14,-0.14,1.0
165,2021,10,27,14,26,53,0.14,-0.14,1.0
166,2021,10,27,14,26,53,0.14,-0.14,1.01
167,2021,10,27,14,26,53,0.14,-0.14,1.01
168,2021,10,27,14,26,53,0.14,-0.14,1.01
169,2021,10,27,14,26,53,0.14,-0.14,1.0
170,2021,10,27,14,26,53,0.14,-0.14,1.0
171,2021,10,27,14,26,53,0.14,-0.14,1.0
172,2021,10,27,14,26,53,0.14,-0.14,1.0
173,2021,10,27,14,26,53,0.14,-0.14,1.01
174,2021,10,27,14,26,53,0.14,-0.14,1.01
175,2021,10,27,14,26,53,0.14,-0.14,1.0
176,2021,10,27,14,26,53,0.14,-0.14,1.01
177,2021,10,27,14,26,54,0.14,-0.14,1.0
178,2021,10,27,14,26,54,0.14,-0.14,1.0
179,2021,10,27,14,26,54,0.14,-0.14,1.0
180,2021,10,27,14,26,54,0.14,-0.14,1.01
181,2021,10,27,14,26,54,0.14,-0.14,1.01
182,2021,10,27,14,26,54,0.14,-0.14,1.01
183,2021,10,27,14,26,54,0.14,-0.14,1.0
184,2021,10,27,14,26,54,0.15,-0.14,1.01
185,2021,10,27,14,26,54,0.14,-0.14,1.0
186,2021,10,27,14,26,54,0.14,-0.14,1.0
187,2021,10,27,14,26,54,0.14,-0.14,1.0
188,2021,10,27,14,26,54,0.14,-0.14,1.01
189,2021,10,27,14,26,54,0.14,-0.14,1.0
190,2021,10,27,14,26,54,0.14,-0.14,1.0
191,2021,10,27,14,26,54,0.14,-0.14,1.01
192,2021,10,27,14,26,54,0.14,-0.14,1.01
193,2021,10,27,14,26,54,0.14,-0.14,1.01
194,2021,10,27,14,26,54,0.14,-0.14,1.0
195,2021,10,27,14,26,54,0.14,-0.14,1.01
196,2021,10,27,14,26,54,0.11,-0.18,1.06
197,2021,10,27,14,26,54,0.09,-0.03,0.8
198,2021,10,27,14,26,54,0.09,-0.07,0.49
199,2021,10,27,14,26,54,-0.03,-0.07,0.4
200,2021,10,27,14,26,54,0.43,0.1,1.37
201,2021,10,27,14,26,54,0.32,-0.04,2.14
202,2021,10,27,14,26,54,0.13,-0.28,0.75
203,2021,10,27,14,26,54,0.09,-0.16,0.77
204,2021,10,27,14,26,54,0.21,-0.38,1.29
205,2021,10,27,14,26,54,0.16,-0.21,1.11
206,2021,10,27,14,26,54,0.09,0.61,0.95
207,2021,10,27,14,26,54,0.04,0.91,0.94
208,2021,10,27,14,26,54,0.01,0.47,0.92
209,2021,10,27,14,26,54,0.03,-0.03,0.97
210,2021,10,27,14,26,54,0.01,-0.24,0.96
211,2021,10,27,14,26,54,0.1,-0.37,1.08
212,2021,10,27,14,26,54,0.23,-0.26,0.97
213,2021,10,27,14,26,54,0.28,-0.33,1.05
214,2021,10,27,14,26,54,0.26,-0.38,1.13
215,2021,10,27,14,26,54,0.15,-0.4,1.11
216,2021,10,27,14,26,54,0.09,-0.24,1.02
217,2021,10,27,14,26,54,0.15,-0.29,1.04
218,2021,10,27,14,26,54,0.23,-0.33,0.95
219,2021,10,27,14,26,54,0.39,-0.96,0.77
220,2021,10,27,14,26,54,0.25,-0.21,0.99
221,2021,10,27,14,26,54,0.16,-0.06,0.93
222,2021,10,27,14,26,54,0.09,0.01,1.02
223,2021,10,27,14,26,54,0.13,0.05,1.09
224,2021,10,27,14,26,54,0.1,0.11,1.16
225,2021,10,27,14,26,54,0.14,-0.02,1.06
226,2021,10,27,14,26,54,0.18,-0.05,1.04
227,2021,10,27,14,26,54,0.18,-0.08,1.04
228,2021,10,27,14,26,54,0.09,-0.04,1.15
229,2021,10,27,14,26,54,0.05,-0.1,1.19
230,2021,10,27,14,26,54,-0.02,-0.25,1.2
231,2021,10,27,14,26,54,0.09,-0.09,1.16
232,2021,10,27,14,26,54,-0.01,-0.11,1.1
233,2021,10,27,14,26,54,0.08,0.0,1.07
234,2021,10,27,14,26,54,0.12,0.12,1.19
235,2021,10,27,14,26,54,0.08,0.1,1.24
236,2021,10,27,14,26,54,0.1,0.06,1.26
237,2021,10,27,14,26,54,0.15,0.19,1.45
238,2021,10,27,14,26,54,0.21,0.31,1.69
239,2021,10,27,14,26,54,0.26,0.3,1.85
240,2021,10,27,14,26,54,0.27,0.32,1.82
241,2021,10,27,14,26,54,0.23,0.29,1.81
242,2021,10,27,14,26,54,0.19,0.23,1.72
243,2021,10,27,14,26,54,0.11,0.22,1.68
244,2021,10,27,14,26,54,0.14,0.28,1.63
245,2021,10,27,14,26,54,0.23,0.31,1.61
246,2021,10,27,14,26,54,0.32,0.27,1.67
247,2021,10,27,14,26,54,0.33,0.11,1.66
248,2021,10,27,14,26,54,0.23,0.13,1.43
249,2021,10,27,14,26,54,0.28,0.39,1.02
250,2021,10,27,14,26,54,0.3,0.59,1.04
251,2021,10,27,14,26,54,0.34,0.47,1.17
252,2021,10,27,14,26,54,0.31,0.29,1.2
253,2021,10,27,14,26,54,0.23,0.15,1.12
254,2021,10,27,14,26,54,0.28,0.07,1.04
255,2021,10,27,14,26,54,0.2,-0.03,1.05
256,2021,10,27,14,26,54,0.41,0.06,1.18
257,2021,10,27,14,26,54,0.39,-0.09,1.15
258,2021,10,27,14,26,54,0.28,-0.27,0.85
259,2021,10,27,14,26,54,0.07,-0.43,0.39
260,2021,10,27,14,26,54,0.14,-0.18,0.04
261,2021,10,27,14,26,54,0.01,0.04,0.11
262,2021,10,27,14,26,54,0.33,0.37,0.27
263,2021,10,27,14,26,54,0.54,0.49,0.4
264,2021,10,27,14,26,54,0.65,0.61,0.54
265,2021,10,27,14,26,54,0.6,0.81,0.34
266,2021,10,27,14,26,54,0.35,0.91,-0.09
267,2021,10,27,14,26,54,0.19,0.87,-0.83
268,2021,10,27,14,26,54,0.61,0.37,-1.11
269,2021,10,27,14,26,54,0.61,-0.04,-1.14
270,2021,10,27,14,26,54,0.81,-0.29,-0.96
271,2021,10,27,14,26,54,0.77,-0.48,-0.57
272,2021,10,27,14,26,54,0.78,-0.55,-0.43
273,2021,10,27,14,26,54,0.61,-0.3,-0.75
274,2021,10,27,14,26,54,0.67,0.01,-1.02
275,2021,10,27,14,26,54,0.71,0.05,-1.03
276,2021,10,27,14,26,54,0.67,0.2,-0.78
277,2021,10,27,14,26,54,0.75,0.16,-0.62
278,2021,10,27,14,26,54,0.66,0.09,-0.66
279,2021,10,27,14,26,54,0.67,0.11,-0.63
280,2021,10,27,14,26,54,0.7,0.11,-0.64
281,2021,10,27,14,26,54,0.66,0.04,-0.7
282,2021,10,27,14,26,54,0.58,0.04,-0.78
283,2021,10,27,14,26,54,0.55,0.01,-0.92
284,2021,10,27,14,26,54,0.49,-0.11,-0.99
285,2021,10,27,14,26,54,0.46,-0.26,-1.05
286,2021,10,27,14,26,54,0.43,-0.35,-1.1
287,2021,10,27,14,26,54,0.41,-0.36,-1.17
288,2021,10,27,14,26,54,0.37,-0.32,-1.25
289,2021,10,27,14,26,54,0.29,-0.24,-1.32
290,2021,10,27,14,26,54,0.25,-0.15,-1.31
291,2021,10,27,14,26,54,0.3,-0.09,-1.22
292,2021,10,27,14,26,54,0.35,-0.05,-1.07
293,2021,10,27,14,26,54,0.41,0.11,-0.97
294,2021,10,27,14,26,54,0.45,0.22,-0.98
295,2021,10,27,14,26,55,0.47,-0.0,-1.08
296,2021,10,27,14,26,55,0.52,0.02,-1.03
297,2021,10,27,14,26,55,0.5,0.2,-0.69
298,2021,10,27,14,26,55,0.47,0.08,-0.57
299,2021,10,27,14,26,55,0.47,-0.02,-0.7
300,2021,10,27,14,26,55,0.48,-0.17,-0.7
301,2021,10,27,14,26,55,0.41,-0.15,-0.62
302,2021,10,27,14,26,55,0.35,-0.12,-0.4
303,2021,10,27,14,26,55,0.3,-0.07,-0.08
304,2021,10,27,14,26,55,0.3,-0.14,0.11
305,2021,10,27,14,26,55,0.39,-0.17,0.24
306,2021,10,27,14,26,55,0.53,-0.31,0.6
307,2021,10,27,14,26,55,0.61,-0.39,0.89
308,2021,10,27,14,26,55,0.64,-0.55,0.75
309,2021,10,27,14,26,55,0.65,-0.68,0.43
310,2021,10,27,14,26,55,0.62,-0.7,0.45
311,2021,10,27,14,26,55,0.62,-0.58,0.7
312,2021,10,27,14,26,55,0.63,-0.39,0.84
313,2021,10,27,14,26,55,0.64,-0.26,0.88
314,2021,10,27,14,26,55,0.62,-0.23,0.85
315,2021,10,27,14,26,55,0.57,-0.26,0.72
316,2021,10,27,14,26,55,0.55,-0.31,0.63
317,2021,10,27,14,26,55,0.37,-0.23,0.63
318,2021,10,27,14,26,55,0.42,-0.29,0.76
319,2021,10,27,14,26,55,0.52,-0.57,0.97
320,2021,10,27,14,26,55,0.56,-0.85,0.92
321,2021,10,27,14,26,55,0.51,-0.9,1.01
322,2021,10,27,14,26,55,0.38,-0.76,0.91
323,2021,10,27,14,26,55,0.35,-0.56,0.71
324,2021,10,27,14,26,55,0.35,-0.41,0.68
325,2021,10,27,14,26,55,0.27,-0.27,0.65
326,2021,10,27,14,26,55,0.26,-0.43,0.73
327,2021,10,27,14,26,55,0.36,-0.14,0.89
328,2021,10,27,14,26,55,0.35,-0.21,1.03
329,2021,10,27,14,26,55,0.28,-0.31,1.16
330,2021,10,27,14,26,55,0.25,-0.31,1.26
331,2021,10,27,14,26,55,0.24,-0.36,1.31
332,2021,10,27,14,26,55,0.23,-0.4,1.34
333,2021,10,27,14,26,55,0.23,-0.46,1.36
334,2021,10,27,14,26,55,0.3,-0.54,1.36
335,2021,10,27,14,26,55,0.32,-0.57,1.28
336,2021,10,27,14,26,55,0.31,-0.57,1.22
337,2021,10,27,14,26,55,0.23,-0.47,1.1
338,2021,10,27,14,26,55,0.16,-0.35,0.96
339,2021,10,27,14,26,55,0.19,-0.25,0.93
340,2021,10,27,14,26,55,0.18,-0.24,0.83
341,2021,10,27,14,26,55,0.36,-0.37,0.75
342,2021,10,27,14,26,55,0.29,-0.36,0.77
343,2021,10,27,14,26,55,0.22,-0.23,0.93
344,2021,10,27,14,26,55,0.23,-0.12,1.07
345,2021,10,27,14,26,55,0.24,-0.12,1.18
346,2021,10,27,14,26,55,0.23,-0.2,1.28
347,2021,10,27,14,26,55,0.24,-0.3,1.34
348,2021,10,27,14,26,55,0.23,-0.35,1.35
349,2021,10,27,14,26,55,0.22,-0.34,1.27
350,2021,10,27,14,26,55,0.23,-0.26,1.15
351,2021,10,27,14,26,55,0.2,-0.21,1.08
352,2021,10,27,14,26,55,0.2,-0.22,1.06
353,2021,10,27,14,26,55,0.24,-0.27,1.09
354,2021,10,27,14,26,55,0.24,-0.29,1.17
355,2021,10,27,14,26,55,0.19,-0.29,1.24
356,2021,10,27,14,26,55,0.19,-0.25,1.28
357,2021,10,27,14,26,55,0.22,-0.23,1.28
358,2021,10,27,14,26,55,0.24,-0.19,1.25
359,2021,10,27,14,26,55,0.08,-0.28,1.29
360,2021,10,27,14,26,55,0.69,-0.1,1.21
361,2021,10,27,14,26,55,0.43,-0.29,0.68
362,2021,10,27,14,26,55,0.27,-0.09,0.88
363,2021,10,27,14,26,55,0.33,0.03,0.98
364,2021,10,27,14,26,55,0.42,0.19,1.11
365,2021,10,27,14,26,55,0.48,0.18,1.05
366,2021,10,27,14,26,55,0.72,0.01,1.05
367,2021,10,27,14,26,55,0.79,0.03,1.15
368,2021,10,27,14,26,55,0.87,0.08,1.29
369,2021,10,27,14,26,55,0.89,0.12,1.37
370,2021,10,27,14,26,55,0.71,0.02,1.26
371,2021,10,27,14,26,55,0.48,-0.16,1.16
372,2021,10,27,14,26,55,0.39,-0.23,1.05
373,2021,10,27,14,26,55,0.49,-0.26,0.93
374,2021,10,27,14,26,55,0.61,-0.25,0.92
375,2021,10,27,14,26,55,0.68,0.05,1.06
376,2021,10,27,14,26,55,0.69,-0.0,1.07
377,2021,10,27,14,26,55,0.69,-0.17,1.11
378,2021,10,27,14,26,55,0.9,-0.2,1.07
379,2021,10,27,14,26,55,0.95,-0.2,0.86
380,2021,10,27,14,26,55,0.88,-0.1,0.53
381,2021,10,27,14,26,55,0.74,0.0,0.23
382,2021,10,27,14,26,55,0.6,0.08,-0.02
383,2021,10,27,14,26,55,0.5,0.05,-0.1
384,2021,10,27,14,26,55,0.77,0.23,-0.18
385,2021,10,27,14,26,55,0.82,-0.09,-0.24
386,2021,10,27,14,26,55,0.81,-0.21,-0.33
387,2021,10,27,14,26,55,0.68,-0.35,-0.45
388,2021,10,27,14,26,55,0.71,-0.3,-0.48
389,2021,10,27,14,26,55,0.82,-0.19,-0.37
390,2021,10,27,14,26,55,0.93,-0.19,-0.22
391,2021,10,27,14,26,55,0.88,-0.21,-0.15
392,2021,10,27,14,26,55,0.74,-0.12,-0.15
393,2021,10,27,14,26,55,0.65,-0.0,-0.2
394,2021,10,27,14,26,55,0.55,0.04,-0.25
395,2021,10,27,14,26,55,0.53,-0.02,-0.27
396,2021,10,27,14,26,55,0.57,-0.08,-0.39
397,2021,10,27,14,26,55,0.6,-0.13,-0.54
398,2021,10,27,14,26,55,0.62,-0.18,-0.67
399,2021,10,27,14,26,55,0.63,-0.16,-0.79
400,2021,10,27,14,26,56,0.63,-0.11,-0.83
401,2021,10,27,14,26,56,0.69,-0.07,-0.79
402,2021,10,27,14,26,56,0.74,-0.11,-0.72
403,2021,10,27,14,26,56,0.7,-0.15,-0.69
404,2021,10,27,14,26,56,0.6,-0.11,-0.64
405,2021,10,27,14,26,56,0.52,-0.03,-0.61
406,2021,10,27,14,26,56,0.45,0.03,-0.61
407,2021,10,27,14,26,56,0.44,0.02,-0.63
408,2021,10,27,14,26,56,0.48,-0.05,-0.66
409,2021,10,27,14,26,56,0.51,-0.15,-0.66
410,2021,10,27,14,26,56,0.62,-0.2,-0.67
411,2021,10,27,14,26,56,0.63,-0.18,-0.69
412,2021,10,27,14,26,56,0.54,-0.14,-0.71
413,2021,10,27,14,26,56,0.56,-0.07,-0.7
414,2021,10,27,14,26,56,0.56,-0.1,-0.72
415,2021,10,27,14,26,56,0.53,-0.15,-0.75
416,2021,10,27,14,26,56,0.55,-0.18,-0.79
417,2021,10,27,14,26,56,0.51,-0.14,-0.82
418,2021,10,27,14,26,56,0.48,-0.07,-0.88
419,2021,10,27,14,26,56,0.43,-0.07,-0.94
420,2021,10,27,14,26,56,0.39,-0.08,-1.0
421,2021,10,27,14,26,56,0.36,-0.11,-1.01
422,2021,10,27,14,26,56,0.37,-0.15,-0.95
423,2021,10,27,14,26,56,0.44,-0.24,-0.92
424,2021,10,27,14,26,56,0.46,-0.25,-0.9
425,2021,10,27,14,26,56,0.49,-0.18,-0.92
426,2021,10,27,14,26,56,0.46,-0.11,-0.96
427,2021,10,27,14,26,56,0.4,-0.12,-1.02
428,2021,10,27,14,26,56,0.4,-0.11,-1.1
429,2021,10,27,14,26,56,0.44,-0.06,-1.18
430,2021,10,27,14,26,56,0.44,-0.01,-1.26
431,2021,10,27,14,26,56,0.4,-0.01,-1.38
432,2021,10,27,14,26,56,0.35,0.02,-1.43
433,2021,10,27,14,26,56,0.52,0.11,-1.4
434,2021,10,27,14,26,56,0.53,0.31,-1.07
435,2021,10,27,14,26,56,0.47,0.32,-0.93
436,2021,10,27,14,26,56,0.24,0.17,-0.93
437,2021,10,27,14,26,56,-0.0,-0.01,-0.82
438,2021,10,27,14,26,56,0.01,-0.21,-0.72
439,2021,10,27,14,26,56,0.18,-0.4,-0.65
440,2021,10,27,14,26,56,0.43,-0.47,-0.2
441,2021,10,27,14,26,56,0.58,-0.42,0.39
442,2021,10,27,14,26,56,0.66,-0.34,0.56
443,2021,10,27,14,26,56,0.8,-0.16,0.45
444,2021,10,27,14,26,56,0.94,0.03,0.16
445,2021,10,27,14,26,56,0.97,0.05,-0.09
446,2021,10,27,14,26,56,0.94,-0.07,-0.1
447,2021,10,27,14,26,56,0.86,-0.18,-0.16
448,2021,10,27,14,26,56,0.53,-0.08,-0.06
449,2021,10,27,14,26,56,0.39,-0.08,-0.06
450,2021,10,27,14,26,56,0.37,-0.39,-0.33
451,2021,10,27,14,26,56,0.33,-0.46,-0.36
452,2021,10,27,14,26,56,0.47,-0.23,-0.34
453,2021,10,27,14,26,56,0.48,0.22,-0.14
454,2021,10,27,14,26,56,0.47,0.31,0.19
455,2021,10,27,14,26,56,0.56,-0.01,0.45
456,2021,10,27,14,26,56,0.58,0.09,0.78
457,2021,10,27,14,26,56,0.74,0.14,1.05
458,2021,10,27,14,26,56,0.71,0.02,1.13
459,2021,10,27,14,26,56,0.86,-0.08,1.26
460,2021,10,27,14,26,56,0.79,-0.01,1.48
461,2021,10,27,14,26,56,0.56,-0.05,1.52
462,2021,10,27,14,26,56,0.49,-0.17,1.45
463,2021,10,27,14,26,56,0.45,-0.21,1.32
464,2021,10,27,14,26,56,0.48,-0.2,1.16
465,2021,10,27,14,26,56,0.47,-0.22,0.92
466,2021,10,27,14,26,56,0.53,-0.17,0.77
467,2021,10,27,14,26,56,0.57,-0.14,0.62
468,2021,10,27,14,26,56,0.6,-0.07,0.47
469,2021,10,27,14,26,56,0.48,0.0,0.34
470,2021,10,27,14,26,56,0.56,0.03,0.2
471,2021,10,27,14,26,56,0.55,0.07,0.27
472,2021,10,27,14,26,56,0.52,0.06,0.46
473,2021,10,27,14,26,56,0.47,0.02,0.69
474,2021,10,27,14,26,56,0.37,0.0,0.91
475,2021,10,27,14,26,56,0.14,0.06,1.11
476,2021,10,27,14,26,56,0.12,0.16,1.29
477,2021,10,27,14,26,56,0.19,0.14,1.34
478,2021,10,27,14,26,56,0.16,0.19,1.48
479,2021,10,27,14,26,56,0.13,0.26,1.63
480,2021,10,27,14,26,56,0.09,0.23,1.72
481,2021,10,27,14,26,56,0.08,0.26,1.86
482,2021,10,27,14,26,56,0.04,0.22,1.92
483,2021,10,27,14,26,56,-0.01,0.17,2.0
484,2021,10,27,14,26,56,-0.08,0.14,2.04
485,2021,10,27,14,26,56,-0.11,0.15,2.06
486,2021,10,27,14,26,56,-0.16,0.19,2.08
487,2021,10,27,14,26,56,-0.11,0.25,2.14
488,2021,10,27,14,26,56,-0.01,0.29,2.19
489,2021,10,27,14,26,56,-0.09,0.3,2.25
490,2021,10,27,14,26,56,-0.25,0.28,2.34
491,2021,10,27,14,26,56,-0.25,0.28,2.47
492,2021,10,27,14,26,56,-0.25,0.12,2.36
493,2021,10,27,14,26,56,-0.33,0.15,2.21
494,2021,10,27,14,26,56,-0.37,0.23,1.94
495,2021,10,27,14,26,56,-0.36,0.23,1.63
496,2021,10,27,14,26,56,-0.26,0.15,1.31
497,2021,10,27,14,26,56,-0.16,0.06,1.02
498,2021,10,27,14,26,56,-0.05,0.09,0.72
499,2021,10,27,14,26,56,0.16,0.23,0.4
500,2021,10,27,14,26,56,0.26,0.4,0.15
501,2021,10,27,14,26,56,0.28,0.43,-0.04
502,2021,10,27,14,26,56,0.39,0.37,-0.15
503,2021,10,27,14,26,56,0.4,0.33,-0.16
504,2021,10,27,14,26,56,0.65,0.44,-0.25
505,2021,10,27,14,26,56,0.62,0.27,-0.33
506,2021,10,27,14,26,56,0.52,0.13,-0.1
507,2021,10,27,14,26,56,0.52,0.02,0.07
508,2021,10,27,14,26,56,0.52,-0.09,0.09
509,2021,10,27,14,26,56,0.51,-0.2,0.18
510,2021,10,27,14,26,56,0.51,-0.32,0.12
511,2021,10,27,14,26,56,0.49,-0.31,-0.0
512,2021,10,27,14,26,56,0.48,-0.22,-0.08
513,2021,10,27,14,26,56,0.49,-0.17,-0.17
514,2021,10,27,14,26,56,0.46,-0.23,-0.26
515,2021,10,27,14,26,56,0.35,-0.22,-0.38
516,2021,10,27,14,26,56,0.35,-0.18,-0.42
517,2021,10,27,14,26,57,0.3,-0.25,-0.51
518,2021,10,27,14,26,57,0.37,-0.26,-0.6
519,2021,10,27,14,26,57,0.37,-0.28,-0.65
520,2021,10,27,14,26,57,0.28,-0.29,-0.72
521,2021,10,27,14,26,57,0.16,-0.27,-0.77
522,2021,10,27,14,26,57,0.18,-0.26,-0.83
523,2021,10,27,14,26,57,0.24,-0.29,-0.89
524,2021,10,27,14,26,57,0.29,-0.35,-0.9
525,2021,10,27,14,26,57,0.3,-0.4,-0.95
526,2021,10,27,14,26,57,0.37,-0.43,-0.98
527,2021,10,27,14,26,57,0.37,-0.46,-0.98
528,2021,10,27,14,26,57,0.33,-0.48,-0.95
529,2021,10,27,14,26,57,0.24,-0.49,-0.93
530,2021,10,27,14,26,57,0.26,-0.47,-0.91
531,2021,10,27,14,26,57,0.23,-0.47,-0.89
532,2021,10,27,14,26,57,0.25,-0.48,-0.9
533,2021,10,27,14,26,57,0.26,-0.5,-0.92
534,2021,10,27,14,26,57,0.22,-0.5,-0.95
535,2021,10,27,14,26,57,0.18,-0.49,-0.95
536,2021,10,27,14,26,57,0.2,-0.48,-0.98
537,2021,10,27,14,26,57,0.2,-0.47,-1.0
538,2021,10,27,14,26,57,0.17,-0.48,-1.03
539,2021,10,27,14,26,57,0.13,-0.51,-1.05
540,2021,10,27,14,26,57,0.11,-0.55,-1.08
541,2021,10,27,14,26,57,0.13,-0.59,-1.11
542,2021,10,27,14,26,57,0.19,-0.63,-1.15
543,2021,10,27,14,26,57,0.22,-0.62,-1.19
544,2021,10,27,14,26,57,0.16,-0.55,-1.22
545,2021,10,27,14,26,57,0.01,-0.45,-1.21
546,2021,10,27,14,26,57,-0.08,-0.39,-1.2
547,2021,10,27,14,26,57,0.01,-0.41,-1.18
548,2021,10,27,14,26,57,0.06,-0.45,-1.19
549,2021,10,27,14,26,57,0.13,-0.47,-1.24
550,2021,10,27,14,26,57,0.27,-0.45,-1.25
551,2021,10,27,14,26,57,0.32,-0.42,-1.22
552,2021,10,27,14,26,57,0.25,-0.38,-1.18
553,2021,10,27,14,26,57,0.18,-0.35,-1.11
554,2021,10,27,14,26,57,0.16,-0.32,-1.03
555,2021,10,27,14,26,57,0.15,-0.29,-0.96
556,2021,10,27,14,26,57,0.17,-0.25,-0.86
557,2021,10,27,14,26,57,0.16,-0.19,-0.73
558,2021,10,27,14,26,57,0.25,-0.1,-0.59
559,2021,10,27,14,26,57,0.2,-0.04,-0.43
560,2021,10,27,14,26,57,0.13,0.0,-0.27
561,2021,10,27,14,26,57,0.21,-0.04,-0.09
562,2021,10,27,14,26,57,0.14,-0.21,0.09
563,2021,10,27,14,26,57,0.12,-0.31,0.34
564,2021,10,27,14,26,57,0.13,-0.25,0.68
565,2021,10,27,14,26,57,0.25,-0.24,0.93
566,2021,10,27,14,26,57,0.5,-0.22,1.02
567,2021,10,27,14,26,57,0.25,-0.18,1.14
568,2021,10,27,14,26,57,0.44,-0.23,1.16
569,2021,10,27,14,26,57,0.35,-0.23,1.11
570,2021,10,27,14,26,57,0.37,-0.28,0.99
571,2021,10,27,14,26,57,0.44,-0.29,0.93
572,2021,10,27,14,26,57,0.39,-0.27,0.88
573,2021,10,27,14,26,57,0.36,-0.3,0.82
574,2021,10,27,14,26,57,0.36,-0.27,0.85
575,2021,10,27,14,26,57,0.37,-0.22,0.88
576,2021,10,27,14,26,57,0.36,-0.17,0.88
577,2021,10,27,14,26,57,0.31,-0.09,0.88
578,2021,10,27,14,26,57,0.28,0.02,0.94
579,2021,10,27,14,26,57,0.23,0.11,0.99
580,2021,10,27,14,26,57,0.21,0.16,1.03
581,2021,10,27,14,26,57,0.2,0.21,1.1
582,2021,10,27,14,26,57,0.18,0.22,1.19
583,2021,10,27,14,26,57,0.15,0.21,1.29
584,2021,10,27,14,26,57,0.08,0.18,1.41
585,2021,10,27,14,26,57,-0.0,0.16,1.53
586,2021,10,27,14,26,57,-0.07,0.13,1.63
587,2021,10,27,14,26,57,-0.09,0.08,1.72
588,2021,10,27,14,26,57,-0.11,0.04,1.79
589,2021,10,27,14,26,57,-0.13,0.0,1.84
590,2021,10,27,14,26,57,-0.11,-0.02,1.87
591,2021,10,27,14,26,57,-0.12,-0.04,1.88
592,2021,10,27,14,26,57,-0.18,-0.05,1.9
593,2021,10,27,14,26,57,-0.22,-0.06,1.93
594,2021,10,27,14,26,57,-0.37,-0.02,2.01
595,2021,10,27,14,26,57,-0.47,0.01,2.07
596,2021,10,27,14,26,57,-0.48,0.08,2.16
597,2021,10,27,14,26,57,-0.59,0.18,2.3
598,2021,10,27,14,26,57,-0.6,0.23,2.4
599,2021,10,27,14,26,57,-0.56,0.24,2.46
600,2021,10,27,14,26,57,-0.58,0.23,2.49
601,2021,10,27,14,26,57,-0.73,0.17,2.42
602,2021,10,27,14,26,57,-0.77,0.1,2.23
603,2021,10,27,14,26,57,-0.94,0.12,2.0
604,2021,10,27,14,26,57,-1.02,0.19,1.72
605,2021,10,27,14,26,57,-0.97,0.26,1.36
606,2021,10,27,14,26,57,-0.9,0.32,1.0
607,2021,10,27,14,26,57,-0.99,0.38,0.67
608,2021,10,27,14,26,57,-0.66,0.43,0.51
609,2021,10,27,14,26,57,-0.57,0.14,0.12
610,2021,10,27,14,26,57,-0.67,0.02,-0.04
611,2021,10,27,14,26,57,-0.57,-0.31,-0.28
612,2021,10,27,14,26,57,-0.29,-0.69,-0.57
613,2021,10,27,14,26,57,-0.22,-0.69,-0.91
614,2021,10,27,14,26,57,-0.12,-0.26,-1.19
615,2021,10,27,14,26,57,-0.34,-0.19,-1.42
616,2021,10,27,14,26,57,-0.21,-0.23,-1.33
617,2021,10,27,14,26,57,0.11,-0.33,-1.11
618,2021,10,27,14,26,57,0.25,-0.41,-1.18
619,2021,10,27,14,26,57,0.28,-0.47,-1.27
620,2021,10,27,14,26,57,0.13,-0.52,-1.18
621,2021,10,27,14,26,57,0.02,-0.55,-1.05
622,2021,10,27,14,26,57,-0.06,-0.6,-1.03
623,2021,10,27,14,26,57,-0.06,-0.67,-1.0
624,2021,10,27,14,26,57,-0.11,-0.76,-0.98
625,2021,10,27,14,26,57,-0.03,-0.77,-1.06
626,2021,10,27,14,26,57,0.19,-0.69,-1.09
627,2021,10,27,14,26,57,0.27,-0.59,-1.05
628,2021,10,27,14,26,57,0.13,-0.52,-1.01
629,2021,10,27,14,26,57,-0.01,-0.47,-0.99
630,2021,10,27,14,26,57,-0.01,-0.39,-0.95
631,2021,10,27,14,26,57,0.06,-0.31,-0.94
632,2021,10,27,14,26,57,0.1,-0.26,-0.93
633,2021,10,27,14,26,57,0.11,-0.23,-0.91
634,2021,10,27,14,26,57,0.13,-0.22,-0.9
635,2021,10,27,14,26,58,0.23,-0.26,-0.91
636,2021,10,27,14,26,58,0.36,-0.36,-0.93
637,2021,10,27,14,26,58,0.46,-0.51,-0.94
638,2021,10,27,14,26,58,0.55,-0.68,-0.95
639,2021,10,27,14,26,58,0.56,-0.81,-0.95
640,2021,10,27,14,26,58,0.54,-0.89,-0.91
641,2021,10,27,14,26,58,0.54,-0.91,-0.9
642,2021,10,27,14,26,58,0.51,-0.88,-0.93
643,2021,10,27,14,26,58,0.46,-0.78,-0.95
644,2021,10,27,14,26,58,0.4,-0.62,-0.97
645,2021,10,27,14,26,58,0.34,-0.44,-0.99
646,2021,10,27,14,26,58,0.27,-0.31,-0.96
647,2021,10,27,14,26,58,0.32,-0.23,-0.96
648,2021,10,27,14,26,58,0.44,-0.22,-0.97
649,2021,10,27,14,26,58,0.54,-0.2,-0.91
650,2021,10,27,14,26,58,0.61,-0.18,-0.81
651,2021,10,27,14,26,58,0.57,-0.18,-0.68
652,2021,10,27,14,26,58,0.53,-0.22,-0.53
653,2021,10,27,14,26,58,0.51,-0.27,-0.4
654,2021,10,27,14,26,58,0.47,-0.33,-0.28
655,2021,10,27,14,26,58,0.44,-0.41,-0.18
656,2021,10,27,14,26,58,0.46,-0.47,-0.09
657,2021,10,27,14,26,58,0.49,-0.4,-0.01
658,2021,10,27,14,26,58,0.5,-0.21,0.13
659,2021,10,27,14,26,58,0.48,0.03,0.28
660,2021,10,27,14,26,58,0.59,0.01,0.3
661,2021,10,27,14,26,58,0.62,-0.0,0.31
662,2021,10,27,14,26,58,0.58,0.08,0.39
663,2021,10,27,14,26,58,0.57,0.07,0.45
664,2021,10,27,14,26,58,0.6,-0.04,0.49
665,2021,10,27,14,26,58,0.58,-0.11,0.58
666,2021,10,27,14,26,58,0.56,-0.14,0.69
667,2021,10,27,14,26,58,0.56,-0.17,0.76
668,2021,10,27,14,26,58,0.79,-0.12,0.8
669,2021,10,27,14,26,58,0.47,-0.12,0.82
670,2021,10,27,14,26,58,0.52,-0.1,0.86
671,2021,10,27,14,26,58,0.57,-0.01,0.93
672,2021,10,27,14,26,58,0.53,0.02,0.95
673,2021,10,27,14,26,58,0.49,0.04,0.95
674,2021,10,27,14,26,58,0.42,0.06,0.99
675,2021,10,27,14,26,58,0.39,0.1,1.06
676,2021,10,27,14,26,58,0.33,0.1,1.13
677,2021,10,27,14,26,58,0.32,0.12,1.24
678,2021,10,27,14,26,58,0.26,0.17,1.38
679,2021,10,27,14,26,58,0.23,0.17,1.45
680,2021,10,27,14,26,58,0.21,0.19,1.52
681,2021,10,27,14,26,58,0.21,0.2,1.6
682,2021,10,27,14,26,58,0.2,0.19,1.66
683,2021,10,27,14,26,58,0.17,0.18,1.72
684,2021,10,27,14,26,58,0.12,0.18,1.78
685,2021,10,27,14,26,58,0.06,0.2,1.84
686,2021,10,27,14,26,58,-0.0,0.18,1.86
687,2021,10,27,14,26,58,-0.02,0.17,1.9
688,2021,10,27,14,26,58,-0.07,0.2,1.96
689,2021,10,27,14,26,58,-0.02,0.23,2.04
690,2021,10,27,14,26,58,0.01,0.25,2.1
691,2021,10,27,14,26,58,-0.03,0.28,2.15
692,2021,10,27,14,26,58,-0.05,0.29,2.18
693,2021,10,27,14,26,58,-0.14,0.26,2.24
694,2021,10,27,14,26,58,-0.1,0.18,2.27
695,2021,10,27,14,26,58,-0.2,0.16,2.28
696,2021,10,27,14,26,58,-0.33,0.04,2.08
697,2021,10,27,14,26,58,-0.44,-0.04,1.82
698,2021,10,27,14,26,58,-0.48,-0.09,1.51
699,2021,10,27,14,26,58,-0.45,-0.12,1.2
700,2021,10,27,14,26,58,-0.43,-0.11,0.87
701,2021,10,27,14,26,58,-0.39,-0.05,0.55
702,2021,10,27,14,26,58,-0.39,0.02,0.2
703,2021,10,27,14,26,58,-0.35,0.0,-0.11
704,2021,10,27,14,26,58,-0.17,-0.08,-0.38
705,2021,10,27,14,26,58,-0.07,-0.41,-0.55
706,2021,10,27,14,26,58,-0.0,-0.68,-0.58
707,2021,10,27,14,26,58,-0.01,-0.84,-0.62
708,2021,10,27,14,26,58,0.1,-0.83,-0.76
709,2021,10,27,14,26,58,0.04,-0.65,-1.0
710,2021,10,27,14,26,58,0.07,-0.42,-1.15
711,2021,10,27,14,26,58,0.14,-0.26,-1.21
712,2021,10,27,14,26,58,0.03,-0.18,-1.24
713,2021,10,27,14,26,58,0.04,-0.23,-1.32
714,2021,10,27,14,26,58,0.23,-0.39,-1.43
715,2021,10,27,14,26,58,0.26,-0.58,-1.49
716,2021,10,27,14,26,58,0.22,-0.72,-1.46
717,2021,10,27,14,26,58,0.17,-0.74,-1.36
718,2021,10,27,14,26,58,0.16,-0.66,-1.23
719,2021,10,27,14,26,58,0.14,-0.55,-1.08
720,2021,10,27,14,26,58,0.17,-0.49,-0.95
721,2021,10,27,14,26,58,0.2,-0.5,-0.87
722,2021,10,27,14,26,58,0.21,-0.49,-0.8
723,2021,10,27,14,26,58,0.19,-0.44,-0.77
724,2021,10,27,14,26,58,0.19,-0.38,-0.77
725,2021,10,27,14,26,58,0.23,-0.35,-0.8
726,2021,10,27,14,26,58,0.27,-0.35,-0.83
727,2021,10,27,14,26,58,0.31,-0.38,-0.86
728,2021,10,27,14,26,58,0.37,-0.43,-0.9
729,2021,10,27,14,26,58,0.42,-0.52,-0.94
730,2021,10,27,14,26,58,0.47,-0.59,-0.93
731,2021,10,27,14,26,58,0.51,-0.6,-0.91
732,2021,10,27,14,26,58,0.52,-0.57,-0.86
733,2021,10,27,14,26,58,0.51,-0.52,-0.79
734,2021,10,27,14,26,58,0.5,-0.45,-0.7
735,2021,10,27,14,26,58,0.48,-0.38,-0.6
736,2021,10,27,14,26,58,0.47,-0.31,-0.51
737,2021,10,27,14,26,58,0.45,-0.3,-0.41
738,2021,10,27,14,26,58,0.39,-0.31,-0.28
739,2021,10,27,14,26,58,0.36,-0.34,-0.16
740,2021,10,27,14,26,58,0.38,-0.37,-0.03
741,2021,10,27,14,26,58,0.36,-0.37,0.1
742,2021,10,27,14,26,58,0.31,-0.36,0.23
743,2021,10,27,14,26,58,0.28,-0.3,0.36
744,2021,10,27,14,26,58,0.25,-0.2,0.48
745,2021,10,27,14,26,58,0.22,-0.14,0.53
746,2021,10,27,14,26,58,0.17,-0.08,0.6
747,2021,10,27,14,26,58,0.1,0.02,0.73
748,2021,10,27,14,26,58,0.34,0.09,0.77
749,2021,10,27,14,26,58,0.02,0.09,0.8
750,2021,10,27,14,26,58,-0.07,0.12,0.91
751,2021,10,27,14,26,58,-0.16,0.16,1.04
752,2021,10,27,14,26,58,-0.28,0.17,1.17
753,2021,10,27,14,26,59,-0.41,0.19,1.3
754,2021,10,27,14,26,59,-0.52,0.21,1.42
755,2021,10,27,14,26,59,-0.61,0.24,1.54
756,2021,10,27,14,26,59,-0.67,0.27,1.66
757,2021,10,27,14,26,59,-0.75,0.3,1.76
758,2021,10,27,14,26,59,-0.83,0.34,1.87
759,2021,10,27,14,26,59,-0.88,0.36,1.98
760,2021,10,27,14,26,59,-0.9,0.38,2.09
761,2021,10,27,14,26,59,-0.9,0.38,2.17
762,2021,10,27,14,26,59,-0.89,0.38,2.25
763,2021,10,27,14,26,59,-0.89,0.39,2.33
764,2021,10,27,14,26,59,-0.94,0.39,2.42
765,2021,10,27,14,26,59,-1.09,0.37,2.51
766,2021,10,27,14,26,59,-0.98,0.31,2.55
767,2021,10,27,14,26,59,-0.85,0.24,2.53
768,2021,10,27,14,26,59,-0.83,0.2,2.48
769,2021,10,27,14,26,59,-0.89,0.15,2.36
770,2021,10,27,14,26,59,-1.09,0.11,2.23
771,2021,10,27,14,26,59,-1.15,0.07,2.1
772,2021,10,27,14,26,59,-1.14,0.03,1.93
773,2021,10,27,14,26,59,-1.16,0.01,1.71
774,2021,10,27,14,26,59,-1.18,0.01,1.5
775,2021,10,27,14,26,59,-1.01,0.02,1.26
776,2021,10,27,14,26,59,-0.89,0.03,1.01
777,2021,10,27,14,26,59,-0.83,0.06,0.78
778,2021,10,27,14,26,59,-0.67,0.08,0.58
779,2021,10,27,14,26,59,-0.48,0.03,0.36
780,2021,10,27,14,26,59,-0.33,-0.04,0.17
781,2021,10,27,14,26,59,-0.18,-0.11,0.04
782,2021,10,27,14,26,59,-0.1,-0.27,-0.16
783,2021,10,27,14,26,59,-0.08,-0.39,-0.3
784,2021,10,27,14,26,59,0.02,-0.55,-0.38
785,2021,10,27,14,26,59,0.09,-0.75,-0.5
786,2021,10,27,14,26,59,0.2,-0.95,-0.59
787,2021,10,27,14,26,59,0.25,-1.12,-0.7
788,2021,10,27,14,26,59,0.48,-1.11,-0.8
789,2021,10,27,14,26,59,0.43,-0.88,-0.89
790,2021,10,27,14,26,59,0.39,-0.61,-1.04
791,2021,10,27,14,26,59,0.38,-0.4,-1.14
792,2021,10,27,14,26,59,0.39,-0.35,-1.14
793,2021,10,27,14,26,59,0.44,-0.47,-1.11
794,2021,10,27,14,26,59,0.45,-0.59,-1.03
795,2021,10,27,14,26,59,0.46,-0.65,-0.93
796,2021,10,27,14,26,59,0.48,-0.67,-0.84
797,2021,10,27,14,26,59,0.5,-0.65,-0.77
798,2021,10,27,14,26,59,0.5,-0.55,-0.66
799,2021,10,27,14,26,59,0.5,-0.41,-0.51
800,2021,10,27,14,26,59,0.5,-0.37,-0.41
801,2021,10,27,14,26,59,0.5,-0.47,-0.4
802,2021,10,27,14,26,59,0.53,-0.58,-0.41
